{
    "resourceType": "Bundle",
    "id": "4e2444ef-94c2-4a7d-9eae-56cde9592b22",
    "type": "transaction",
    "meta": {
        "lastUpdated": "2022-09-09T09:10:36.744+01:00"
    },
    "entry": [
        {
            "resource": {
                "resourceType": "Medication",
                "id": "TTSPlaceboPatch",
                "code": {
                    "coding": [
                        {
                            "system": "https://iwrs.lilly.com/",
                            "code": "8375",
                            "display": "Placebo"
                        }
                    ],
                    "text": "Placebo"
                },
                "form": {
                    "coding": [
                        {
                            "system": "http://snomed.info/sct",
                            "code": "385114002",
                            "display": "Transdermal patch"
                        }
                    ],
                    "text": "Transdermal patch"
                }
            }
        },
        {
            "resource": {
                "resourceType": "Medication",
                "id": "H2Q-MC-LZZT-LY246708-1",
                "code": {
                    "coding": [
                        {
                            "system": "https://iwrs.lilly.com/",
                            "code": "H2Q-MC-LZZT-LY246708-1",
                            "display": "H2Q-MC-LZZT-LY246708-1"
                        }
                    ],
                    "text": "H2Q-MC-LZZT-LY246708-1"
                },
                "form": {
                    "coding": [
                        {
                            "system": "http://snomed.info/sct",
                            "code": "385114002",
                            "display": "Transdermal patch"
                        }
                    ],
                    "text": "Transdermal patch"
                }
            }
        },
        {
            "resource": {
                "resourceType": "Medication",
                "id": "H2Q-MC-LZZT-LY246708-2",
                "code": {
                    "coding": [
                        {
                            "system": "https://iwrs.lilly.com/",
                            "code": "H2Q-MC-LZZT-LY246708-2",
                            "display": "H2Q-MC-LZZT-LY246708-2"
                        }
                    ],
                    "text": "H2Q-MC-LZZT-LY246708-2"
                },
                "form": {
                    "coding": [
                        {
                            "system": "http://snomed.info/sct",
                            "code": "385114002",
                            "display": "Transdermal patch"
                        }
                    ],
                    "text": "Transdermal patch"
                }
            }
        },
        {
            "resource": {
                "resourceType": "Medication",
                "id": "H2Q-MC-LZZT-LY246708-3",
                "code": {
                    "coding": [
                        {
                            "system": "https://iwrs.lilly.com/",
                            "code": "H2Q-MC-LZZT-LY246708-3",
                            "display": "H2Q-MC-LZZT-LY246708-3"
                        }
                    ],
                    "text": "H2Q-MC-LZZT-LY246708-3"
                },
                "form": {
                    "coding": [
                        {
                            "system": "http://snomed.info/sct",
                            "code": "385114002",
                            "display": "Transdermal patch"
                        }
                    ],
                    "text": "Transdermal patch"
                }
            }
        },
        {
            "resource": {
                "resourceType": "ActivityDefinition",
                "id": "H2Q-MC-LZZT-Placebo-TTS-Admin",
                "text": {
                    "status": "generated",
                    "div": "Created by Vulcan SoA team"
                },
                "contained": [
                    {
                        "resourceType": "Medication",
                        "id": "TTSPlaceboPatch",
                        "code": {
                            "coding": [
                                {
                                    "system": "https://iwrs.lilly.com/",
                                    "code": "8375",
                                    "display": "Placebo"
                                }
                            ],
                            "text": "Placebo"
                        },
                        "form": {
                            "coding": [
                                {
                                    "system": "http://snomed.info/sct",
                                    "code": "385114002",
                                    "display": "Transdermal patch"
                                }
                            ],
                            "text": "Transdermal patch"
                        }
                    }
                ],
                "identifier": [
                    {
                        "system": "https://sourceforge.net/projects/fhirloinc2sdtm/",
                        "value": "H2Q-MC-LZZT-Placebo-TTS-Admin",
                        "use": "temp"
                    }
                ],
                "status": "active",
                "version": "1.0.0",
                "name": "H2Q-MC-LZZT-Placebo-TTS-Admin",
                "title": "H2Q-MC-LZZT-Placebo-TTS-Admin",
                "experimental": true,
                "date": "2022-08-24T09:10:36.744+01:00",
                "publisher": "Eli Lilly and Company",
                "contact": [
                    {
                        "name": "Eli Lilly and Company",
                        "telecom": [
                            {
                                "system": "phone",
                                "value": "+1-877-285-4559",
                                "use": "work"
                            }
                        ]
                    }
                ],
                "description": "Transdermal Therapeutic System Test patch transdermal 1 time only",
                "useContext": [
                    {
                        "code": {
                            "system": "http://terminology.hl7.org/CodeSystem/usage-context-type",
                            "code": "age",
                            "display": "Age"
                        },
                        "valueCodeableConcept": {
                            "coding": [
                                {
                                    "system": "http://terminology.hl7.org/CodeSystem/age-group",
                                    "code": "adult",
                                    "display": "Adult"
                                }
                            ],
                            "text": "Adult"
                        }
                    }
                ],
                "jurisdiction": [
                    {
                        "coding": [
                            {
                                "system": "urn:iso:std:iso:3166",
                                "code": "US",
                                "display": "United States of America"
                            }
                        ],
                        "text": "United States of America"
                    }
                ],
                "purpose": "To assess the safety of the Transdermal Therapeutic System (TTS) used to administer Xanomeline or Placebo in patients with Mild to Moderate Alzheimer’s Disease.",
                "usage": "This activity definition is used to articulate the planned activity to assess the safety of the Transdermal Therapeutic System (TTS) used to administer Xanomeline or Placebo in patients with Mild to Moderate Alzheimer’s Disease.",
                "copyright": "© Copyright 2006 Eli Lilly and Company. All rights reserved.",
                "approvalDate": "2022-08-24",
                "lastReviewDate": "2022-08-24",
                "effectivePeriod": {
                    "start": "2012-07-01",
                    "end": "2015-03-30"
                },
                "topic": [
                    {
                        "text": "Treatment of Mild to Moderate Alzheimer’s Disease"
                    }
                ],
                "author": [
                    {
                        "name": "Eli Lilly and Company",
                        "telecom": [
                            {
                                "system": "phone",
                                "value": "+1-877-285-4559",
                                "use": "work"
                            }
                        ]
                    }
                ],
                "kind": "MedicationRequest",
                "productReference": {
                    "reference": "Medication/TTSPlaceboPatch"
                },
                "dosage": [
                    {
                        "text": "Transdermal Therapeutic System Test patch transdermal 1 time only",
                        "patientInstruction": "Administer one time",
                        "timing": {
                            "repeat": {
                                "frequency": 1,
                                "period": 1,
                                "periodUnit": "d"
                            }
                        },
                        "route": {
                            "coding": [
                                {
                                    "system": "http://snomed.info/sct",
                                    "code": "45890007",
                                    "display": "Transdermal route"
                                }
                            ],
                            "text": "Transdermal route"
                        },
                        "site": {
                            "coding": [
                                {
                                    "system": "http://snomed.info/sct",
                                    "code": "371309009",
                                    "display": "Skin structure of upper arm"
                                }
                            ],
                            "text": "Skin structure of upper arm"
                        },
                        "doseAndRate": [
                            {
                                "type": {
                                    "coding": [
                                        {
                                            "system": "http://terminology.hl7.org/CodeSystem/dose-rate-type",
                                            "code": "ordered",
                                            "display": "Ordered"
                                        }
                                    ],
                                    "text": "Ordered"
                                },
                                "doseQuantity": {
                                    "value": 1,
                                    "unit": "patch",
                                    "system": "http://unitsofmeasure.org",
                                    "code": "patch"
                                }
                            }
                        ]
                    }
                ]
            }
        },
        {
            "resource": {
                "resourceType": "ActivityDefinition",
                "id": "H2Q-MC-LZZT-IP-Administration-BlindedDoseStrength1",
                "text": {
                    "status": "generated",
                    "div": "Created by Vulcan SoA team"
                },
                "contained": [
                    {
                        "resourceType": "Medication",
                        "id": "H2Q-MC-LZZT-LY246708-1",
                        "code": {
                            "coding": [
                                {
                                    "system": "https://iwrs.lilly.com/",
                                    "code": "H2Q-MC-LZZT-LY246708-1",
                                    "display": "H2Q-MC-LZZT-LY246708-1"
                                }
                            ],
                            "text": "H2Q-MC-LZZT-LY246708-1"
                        },
                        "form": {
                            "coding": [
                                {
                                    "system": "http://snomed.info/sct",
                                    "code": "385114002",
                                    "display": "Transdermal patch"
                                }
                            ],
                            "text": "Transdermal patch"
                        }
                    }
                ],
                "identifier": [
                    {
                        "system": "https://sourceforge.net/projects/fhirloinc2sdtm/",
                        "value": "H2Q-MC-LZZT-IP-Administration-1",
                        "use": "temp"
                    }
                ],
                "status": "active",
                "version": "1.0.0",
                "name": "H2Q-MC-LZZT-IP-Administration-1",
                "title": "H2Q-MC-LZZT-IP-Administration-1",
                "experimental": true,
                "date": "2022-08-24T09:10:36.744+01:00",
                "publisher": "Eli Lilly and Company",
                "contact": [
                    {
                        "name": "Eli Lilly and Company",
                        "telecom": [
                            {
                                "system": "phone",
                                "value": "+1-877-285-4559",
                                "use": "work"
                            }
                        ]
                    }
                ],
                "description": "H2Q-MC-LZZT-LY246708 2 patches transdermal daily blinded dose strength 1 (28 patches; 0 refills)",
                "useContext": [
                    {
                        "code": {
                            "system": "http://terminology.hl7.org/CodeSystem/usage-context-type",
                            "code": "age",
                            "display": "Age"
                        },
                        "valueCodeableConcept": {
                            "coding": [
                                {
                                    "system": "http://terminology.hl7.org/CodeSystem/age-group",
                                    "code": "adult",
                                    "display": "Adult"
                                }
                            ],
                            "text": "Adult"
                        }
                    }
                ],
                "jurisdiction": [
                    {
                        "coding": [
                            {
                                "system": "urn:iso:std:iso:3166",
                                "code": "US",
                                "display": "United States of America"
                            }
                        ],
                        "text": "United States of America"
                    }
                ],
                "purpose": "To assess the safety of the Transdermal Therapeutic System (TTS) used to administer Xanomeline or Placebo in patients with Mild to Moderate Alzheimer’s Disease.",
                "usage": "This activity definition is used to articulate the planned activity to assess the safety of the Transdermal Therapeutic System (TTS) used to administer Xanomeline or Placebo in patients with Mild to Moderate Alzheimer’s Disease.",
                "copyright": "© Copyright 2006 Eli Lilly and Company. All rights reserved.",
                "approvalDate": "2022-08-24",
                "lastReviewDate": "2022-08-24",
                "effectivePeriod": {
                    "start": "2012-07-01",
                    "end": "2015-03-30"
                },
                "topic": [
                    {
                        "text": "Treatment of Mild to Moderate Alzheimer’s Disease"
                    }
                ],
                "author": [
                    {
                        "name": "Eli Lilly and Company",
                        "telecom": [
                            {
                                "system": "phone",
                                "value": "+1-877-285-4559",
                                "use": "work"
                            }
                        ]
                    }
                ],
                "kind": "MedicationRequest",
                "productReference": {
                    "reference": "Medication/H2Q-MC-LZZT-LY246708-1"
                },
                "dosage": [
                    {
                        "text": "2 patches transdermal 1 time daily for 12-14 hours",
                        "patientInstruction": "Each Sunday, apply patch to Skin structure of upper arm (Skin structure of upper arm).  Each Monday, apply patch to Skin structure of upper back (Skin structure of upper back).  Each Tuesday, apply patch to Skin structure of lower back (Skin structure of lower back).  Each Wednesday, apply patch to Skin structure of buttock (Skin structure of buttock).  Each Thursday, apply patch to Skin structure of posterior axillary line (Skin structure of posterior axillary line).  Each Friday, apply patch to Skin structure of upper thigh region (Skin structure of upper thigh region).  Each Saturday, apply patch to Skin structure of upper chest wall (Skin structure of upper chest wall).",
                        "timing": {
                            "repeat": {
                                "frequency": 1,
                                "period": 1,
                                "periodUnit": "d",
                                "timeOfDay": [
                                    "08:00:00"
                                ],
                                "duration": 12,
                                "durationUnit": "h",
                                "durationMax": 14
                            }
                        },
                        "route": {
                            "coding": [
                                {
                                    "system": "http://snomed.info/sct",
                                    "code": "45890007",
                                    "display": "Transdermal route"
                                }
                            ],
                            "text": "Transdermal route"
                        },
                        "site": {
                            "coding": [
                                {
                                    "system": "http://snomed.info/sct",
                                    "code": "39937001",
                                    "display": "Skin structure"
                                }
                            ],
                            "text": "Skin structure"
                        },
                        "doseAndRate": [
                            {
                                "type": {
                                    "coding": [
                                        {
                                            "system": "http://terminology.hl7.org/CodeSystem/dose-rate-type",
                                            "code": "ordered",
                                            "display": "Ordered"
                                        }
                                    ],
                                    "text": "Ordered"
                                },
                                "doseQuantity": {
                                    "value": 1,
                                    "unit": "patch",
                                    "system": "http://unitsofmeasure.org",
                                    "code": "patch"
                                }
                            }
                        ]
                    }
                ]
            }
        },
        {
            "resource": {
                "resourceType": "ActivityDefinition",
                "id": "H2Q-MC-LZZT-IP-Administration-BlindedDoseStrength2",
                "text": {
                    "status": "generated",
                    "div": "Created by Vulcan SoA team"
                },
                "contained": [
                    {
                        "resourceType": "Medication",
                        "id": "H2Q-MC-LZZT-LY246708-2",
                        "code": {
                            "coding": [
                                {
                                    "system": "https://iwrs.lilly.com/",
                                    "code": "H2Q-MC-LZZT-LY246708-2",
                                    "display": "H2Q-MC-LZZT-LY246708-2"
                                }
                            ],
                            "text": "H2Q-MC-LZZT-LY246708-2"
                        },
                        "form": {
                            "coding": [
                                {
                                    "system": "http://snomed.info/sct",
                                    "code": "385114002",
                                    "display": "Transdermal patch"
                                }
                            ],
                            "text": "Transdermal patch"
                        }
                    }
                ],
                "identifier": [
                    {
                        "system": "https://sourceforge.net/projects/fhirloinc2sdtm/",
                        "value": "H2Q-MC-LZZT-IP-Administration-2",
                        "use": "temp"
                    }
                ],
                "status": "active",
                "version": "1.0.0",
                "name": "H2Q-MC-LZZT-IP-Administration-2",
                "title": "H2Q-MC-LZZT-IP-Administration-2",
                "experimental": true,
                "date": "2022-08-24",
                "publisher": "Eli Lilly and Company",
                "contact": [
                    {
                        "name": "Eli Lilly and Company",
                        "telecom": [
                            {
                                "system": "phone",
                                "value": "+1-877-285-4559",
                                "use": "work"
                            }
                        ]
                    }
                ],
                "description": "H2Q-MC-LZZT-LY246708 2 patches transdermal daily blinded dose strength 2 (308 patches; 0 refills)",
                "useContext": [
                    {
                        "code": {
                            "system": "http://terminology.hl7.org/CodeSystem/usage-context-type",
                            "code": "age",
                            "display": "Age"
                        },
                        "valueCodeableConcept": {
                            "coding": [
                                {
                                    "system": "http://terminology.hl7.org/CodeSystem/age-group",
                                    "code": "adult",
                                    "display": "Adult"
                                }
                            ],
                            "text": "Adult"
                        }
                    }
                ],
                "jurisdiction": [
                    {
                        "coding": [
                            {
                                "system": "urn:iso:std:iso:3166",
                                "code": "US",
                                "display": "United States of America"
                            }
                        ],
                        "text": "United States of America"
                    }
                ],
                "purpose": "To assess the safety of the Transdermal Therapeutic System (TTS) used to administer Xanomeline or Placebo in patients with Mild to Moderate Alzheimer’s Disease.",
                "usage": "This activity definition is used to articulate the planned activity to assess the safety of the Transdermal Therapeutic System (TTS) used to administer Xanomeline or Placebo in patients with Mild to Moderate Alzheimer’s Disease.",
                "copyright": "© Copyright 2006 Eli Lilly and Company. All rights reserved.",
                "approvalDate": "2022-08-24",
                "lastReviewDate": "2022-08-24",
                "effectivePeriod": {
                    "start": "2012-07-01",
                    "end": "2015-03-30"
                },
                "topic": [
                    {
                        "text": "Treatment of Mild to Moderate Alzheimer’s Disease"
                    }
                ],
                "author": [
                    {
                        "name": "Eli Lilly and Company",
                        "telecom": [
                            {
                                "system": "phone",
                                "value": "+1-877-285-4559",
                                "use": "work"
                            }
                        ]
                    }
                ],
                "kind": "MedicationRequest",
                "productReference": {
                    "reference": "Medication/H2Q-MC-LZZT-LY246708-2"
                },
                "dosage": [
                    {
                        "text": "2 patches transdermal 1 time daily for 12-14 hours",
                        "patientInstruction": "Each Sunday, apply patch to Skin structure of upper arm (Skin structure of upper arm).  Each Monday, apply patch to Skin structure of upper back (Skin structure of upper back).  Each Tuesday, apply patch to Skin structure of lower back (Skin structure of lower back).  Each Wednesday, apply patch to Skin structure of buttock (Skin structure of buttock).  Each Thursday, apply patch to Skin structure of posterior axillary line (Skin structure of posterior axillary line).  Each Friday, apply patch to Skin structure of upper thigh region (Skin structure of upper thigh region).  Each Saturday, apply patch to Skin structure of upper chest wall (Skin structure of upper chest wall).",
                        "timing": {
                            "repeat": {
                                "frequency": 1,
                                "period": 1,
                                "periodUnit": "d",
                                "timeOfDay": [
                                    "08:00:00"
                                ],
                                "duration": 12,
                                "durationUnit": "h",
                                "durationMax": 14
                            }
                        },
                        "route": {
                            "coding": [
                                {
                                    "system": "http://snomed.info/sct",
                                    "code": "45890007",
                                    "display": "Transdermal route"
                                }
                            ],
                            "text": "Transdermal route"
                        },
                        "site": {
                            "coding": [
                                {
                                    "system": "http://snomed.info/sct",
                                    "code": "39937001",
                                    "display": "Skin structure"
                                }
                            ],
                            "text": "Skin structure"
                        },
                        "doseAndRate": [
                            {
                                "type": {
                                    "coding": [
                                        {
                                            "system": "http://terminology.hl7.org/CodeSystem/dose-rate-type",
                                            "code": "ordered",
                                            "display": "Ordered"
                                        }
                                    ],
                                    "text": "Ordered"
                                },
                                "doseQuantity": {
                                    "value": 2,
                                    "unit": "patch",
                                    "system": "http://unitsofmeasure.org",
                                    "code": "patch"
                                }
                            }
                        ]
                    }
                ]
            }
        },
        {
            "resource": {
                "resourceType": "ActivityDefinition",
                "id": "H2Q-MC-LZZT-IP-Administration-BlindedDoseStrength3",
                "text": {
                    "status": "generated",
                    "div": "Created by Vulcan SoA Team"
                },
                "contained": [
                    {
                        "resourceType": "Medication",
                        "id": "H2Q-MC-LZZT-LY246708-3",
                        "code": {
                            "coding": [
                                {
                                    "system": "https://iwrs.lilly.com/",
                                    "code": "H2Q-MC-LZZT-LY246708-3",
                                    "display": "H2Q-MC-LZZT-LY246708-3"
                                }
                            ],
                            "text": "H2Q-MC-LZZT-LY246708-3"
                        },
                        "form": {
                            "coding": [
                                {
                                    "system": "http://snomed.info/sct",
                                    "code": "385114002",
                                    "display": "Transdermal patch"
                                }
                            ],
                            "text": "Transdermal patch"
                        }
                    }
                ],
                "identifier": [
                    {
                        "system": "https://sourceforge.net/projects/fhirloinc2sdtm/",
                        "value": "H2Q-MC-LZZT-IP-Administration-3",
                        "use": "temp"
                    }
                ],
                "status": "active",
                "version": "1.0.0",
                "name": "H2Q-MC-LZZT-IP-Administration-3",
                "title": "H2Q-MC-LZZT-IP-Administration-3",
                "experimental": true,
                "date": "2022-08-24",
                "publisher": "Eli Lilly and Company",
                "contact": [
                    {
                        "name": "Eli Lilly and Company",
                        "telecom": [
                            {
                                "system": "phone",
                                "value": "+1-877-285-4559",
                                "use": "work"
                            }
                        ]
                    }
                ],
                "description": "H2Q-MC-LZZT-LY246708 2 patches transdermal daily blinded dose strength 3 (28 patches; 0 refills)",
                "useContext": [
                    {
                        "code": {
                            "system": "http://terminology.hl7.org/CodeSystem/usage-context-type",
                            "code": "age",
                            "display": "Age"
                        },
                        "valueCodeableConcept": {
                            "coding": [
                                {
                                    "system": "http://terminology.hl7.org/CodeSystem/age-group",
                                    "code": "adult",
                                    "display": "Adult"
                                }
                            ],
                            "text": "Adult"
                        }
                    }
                ],
                "jurisdiction": [
                    {
                        "coding": [
                            {
                                "system": "urn:iso:std:iso:3166",
                                "code": "US",
                                "display": "United States of America"
                            }
                        ],
                        "text": "United States of America"
                    }
                ],
                "purpose": "To assess the safety of the Transdermal Therapeutic System (TTS) used to administer Xanomeline or Placebo in patients with Mild to Moderate Alzheimer’s Disease.",
                "usage": "This activity definition is used to articulate the planned activity to assess the safety of the Transdermal Therapeutic System (TTS) used to administer Xanomeline or Placebo in patients with Mild to Moderate Alzheimer’s Disease.",
                "copyright": "© Copyright 2006 Eli Lilly and Company. All rights reserved.",
                "approvalDate": "2022-08-24",
                "lastReviewDate": "2022-08-24",
                "effectivePeriod": {
                    "start": "2012-07-01",
                    "end": "2015-03-30"
                },
                "topic": [
                    {
                        "text": "Treatment of Mild to Moderate Alzheimer’s Disease"
                    }
                ],
                "author": [
                    {
                        "name": "Eli Lilly and Company",
                        "telecom": [
                            {
                                "system": "phone",
                                "value": "+1-877-285-4559",
                                "use": "work"
                            }
                        ]
                    }
                ],
                "kind": "MedicationRequest",
                "productReference": {
                    "reference": "Medication/H2Q-MC-LZZT-LY246708-3"
                },
                "dosage": [
                    {
                        "text": "2 patches transdermal 1 time daily for 12-14 hours",
                        "patientInstruction": "Each Sunday, apply patch to Skin structure of upper arm (Skin structure of upper arm).  Each Monday, apply patch to Skin structure of upper back (Skin structure of upper back).  Each Tuesday, apply patch to Skin structure of lower back (Skin structure of lower back).  Each Wednesday, apply patch to Skin structure of buttock (Skin structure of buttock).  Each Thursday, apply patch to Skin structure of posterior axillary line (Skin structure of posterior axillary line).  Each Friday, apply patch to Skin structure of upper thigh region (Skin structure of upper thigh region).  Each Saturday, apply patch to Skin structure of upper chest wall (Skin structure of upper chest wall).",
                        "timing": {
                            "repeat": {
                                "frequency": 1,
                                "period": 1,
                                "periodUnit": "d",
                                "timeOfDay": [
                                    "08:00:00"
                                ],
                                "duration": 12,
                                "durationUnit": "h",
                                "durationMax": 14
                            }
                        },
                        "route": {
                            "coding": [
                                {
                                    "system": "http://snomed.info/sct",
                                    "code": "45890007",
                                    "display": "Transdermal route"
                                }
                            ],
                            "text": "Transdermal route"
                        },
                        "site": {
                            "coding": [
                                {
                                    "system": "http://snomed.info/sct",
                                    "code": "39937001",
                                    "display": "Skin structure"
                                }
                            ],
                            "text": "Skin structure"
                        },
                        "doseAndRate": [
                            {
                                "type": {
                                    "coding": [
                                        {
                                            "system": "http://terminology.hl7.org/CodeSystem/dose-rate-type",
                                            "code": "ordered",
                                            "display": "Ordered"
                                        }
                                    ],
                                    "text": "Ordered"
                                },
                                "doseQuantity": {
                                    "value": 2,
                                    "unit": "patch",
                                    "system": "http://unitsofmeasure.org",
                                    "code": "patch"
                                }
                            }
                        ]
                    }
                ]
            }
        }
    ]
}